File: Advanced_Physics_Laboratory/Pysical_Properties/XRD/Al.xy
20.0000	311.0000
20.0616	308.0000
20.1231	307.0000
20.1847	295.0000
20.2463	318.0000
20.3078	290.0000
20.3694	310.0000
20.4310	263.0000
20.4925	312.0000
20.5541	322.0000
20.6157	285.0000
20.6772	281.0000
20.7388	282.0000
20.8004	286.0000
20.8619	293.0000
20.9235	299.0000
20.9851	311.0000
21.0466	283.0000
21.1082	313.0000
21.1697	303.0000
21.2313	260.0000
21.2929	275.0000
21.3544	257.0000
21.4160	273.0000
21.4776	275.0000
21.5391	272.0000
21.6007	256.0000
21.6623	285.0000
21.7238	269.0000
21.7854	248.0000
21.8470	271.0000
21.9085	263.0000
21.9701	273.0000
22.0317	278.0000
22.0932	267.0000
22.1548	254.0000
22.2164	280.0000
22.2779	294.0000
22.3395	267.0000
22.4011	251.0000
22.4626	287.0000
22.5242	267.0000
22.5858	269.0000
22.6473	268.0000
22.7089	283.0000
22.7705	245.0000
22.8320	287.0000
22.8936	235.0000
22.9552	248.0000
23.0167	256.0000
23.0783	228.0000
23.1398	238.0000
23.2014	241.0000
23.2630	230.0000
23.3245	256.0000
23.3861	237.0000
23.4477	227.0000
23.5092	243.0000
23.5708	248.0000
23.6324	220.0000
23.6939	232.0000
23.7555	225.0000
23.8171	265.0000
23.8786	298.0000
23.9402	263.0000
24.0018	246.0000
24.0633	257.0000
24.1249	273.0000
24.1865	274.0000
24.2480	278.0000
24.3096	240.0000
24.3712	235.0000
24.4327	205.0000
24.4943	242.0000
24.5559	231.0000
24.6174	231.0000
24.6790	243.0000
24.7406	193.0000
24.8021	212.0000
24.8637	237.0000
24.9253	216.0000
24.9868	193.0000
25.0484	196.0000
25.1099	255.0000
25.1715	220.0000
25.2331	241.0000
25.2946	211.0000
25.3562	229.0000
25.4178	229.0000
25.4793	218.0000
25.5409	201.0000
25.6025	233.0000
25.6640	206.0000
25.7256	211.0000
25.7872	228.0000
25.8487	213.0000
25.9103	217.0000
25.9719	199.0000
26.0334	204.0000
26.0950	195.0000
26.1566	202.0000
26.2181	194.0000
26.2797	203.0000
26.3413	223.0000
26.4028	218.0000
26.4644	209.0000
26.5260	210.0000
26.5875	197.0000
26.6491	203.0000
26.7107	189.0000
26.7722	219.0000
26.8338	179.0000
26.8954	213.0000
26.9569	204.0000
27.0185	194.0000
27.0800	183.0000
27.1416	183.0000
27.2032	222.0000
27.2647	190.0000
27.3263	191.0000
27.3879	210.0000
27.4494	230.0000
27.5110	229.0000
27.5726	215.0000
27.6341	202.0000
27.6957	165.0000
27.7573	177.0000
27.8188	171.0000
27.8804	199.0000
27.9420	184.0000
28.0035	184.0000
28.0651	212.0000
28.1267	187.0000
28.1882	183.0000
28.2498	178.0000
28.3114	218.0000
28.3729	213.0000
28.4345	195.0000
28.4961	210.0000
28.5576	170.0000
28.6192	180.0000
28.6808	191.0000
28.7423	204.0000
28.8039	170.0000
28.8655	166.0000
28.9270	182.0000
28.9886	193.0000
29.0501	159.0000
29.1117	166.0000
29.1733	159.0000
29.2348	174.0000
29.2964	144.0000
29.3580	186.0000
29.4195	171.0000
29.4811	182.0000
29.5427	178.0000
29.6042	191.0000
29.6658	144.0000
29.7274	174.0000
29.7889	174.0000
29.8505	162.0000
29.9121	155.0000
29.9736	187.0000
30.0352	180.0000
30.0968	162.0000
30.1583	176.0000
30.2199	164.0000
30.2815	164.0000
30.3430	146.0000
30.4046	186.0000
30.4662	154.0000
30.5277	180.0000
30.5893	177.0000
30.6509	181.0000
30.7124	172.0000
30.7740	159.0000
30.8356	164.0000
30.8971	159.0000
30.9587	165.0000
31.0203	180.0000
31.0818	180.0000
31.1434	179.0000
31.2049	137.0000
31.2665	178.0000
31.3281	173.0000
31.3896	164.0000
31.4512	170.0000
31.5128	161.0000
31.5743	162.0000
31.6359	172.0000
31.6975	158.0000
31.7590	168.0000
31.8206	164.0000
31.8822	164.0000
31.9437	135.0000
32.0053	155.0000
32.0669	154.0000
32.1284	158.0000
32.1900	143.0000
32.2516	170.0000
32.3131	159.0000
32.3747	168.0000
32.4363	180.0000
32.4978	153.0000
32.5594	169.0000
32.6210	139.0000
32.6825	167.0000
32.7441	156.0000
32.8057	144.0000
32.8672	152.0000
32.9288	148.0000
32.9904	153.0000
33.0519	179.0000
33.1135	143.0000
33.1750	179.0000
33.2366	171.0000
33.2982	147.0000
33.3597	132.0000
33.4213	161.0000
33.4829	162.0000
33.5444	167.0000
33.6060	160.0000
33.6676	153.0000
33.7291	142.0000
33.7907	148.0000
33.8523	131.0000
33.9138	157.0000
33.9754	160.0000
34.0370	156.0000
34.0985	140.0000
34.1601	166.0000
34.2217	150.0000
34.2832	168.0000
34.3448	154.0000
34.4064	171.0000
34.4679	164.0000
34.5295	186.0000
34.5911	186.0000
34.6526	181.0000
34.7142	165.0000
34.7758	158.0000
34.8373	155.0000
34.8989	170.0000
34.9605	151.0000
35.0220	171.0000
35.0836	168.0000
35.1451	178.0000
35.2067	129.0000
35.2683	153.0000
35.3298	154.0000
35.3914	151.0000
35.4530	144.0000
35.5145	141.0000
35.5761	170.0000
35.6377	161.0000
35.6992	178.0000
35.7608	151.0000
35.8224	156.0000
35.8839	148.0000
35.9455	150.0000
36.0071	145.0000
36.0686	126.0000
36.1302	159.0000
36.1918	140.0000
36.2533	155.0000
36.3149	139.0000
36.3765	148.0000
36.4380	164.0000
36.4996	138.0000
36.5612	153.0000
36.6227	175.0000
36.6843	173.0000
36.7459	181.0000
36.8074	187.0000
36.8690	146.0000
36.9306	150.0000
36.9921	155.0000
37.0537	157.0000
37.1152	161.0000
37.1768	141.0000
37.2384	140.0000
37.2999	145.0000
37.3615	156.0000
37.4231	167.0000
37.4846	154.0000
37.5462	180.0000
37.6078	150.0000
37.6693	167.0000
37.7309	152.0000
37.7925	150.0000
37.8540	152.0000
37.9156	160.0000
37.9772	162.0000
38.0387	180.0000
38.1003	166.0000
38.1619	230.0000
38.2234	319.0000
38.2850	365.0000
38.3466	670.0000
38.4081	1100
38.4697	2082
38.5313	949.0000
38.5928	901.0000
38.6544	278.0000
38.7160	196.0000
38.7775	189.0000
38.8391	163.0000
38.9007	147.0000
38.9622	174.0000
39.0238	145.0000
39.0853	149.0000
39.1469	163.0000
39.2085	144.0000
39.2700	167.0000
39.3316	160.0000
39.3932	156.0000
39.4547	130.0000
39.5163	125.0000
39.5779	137.0000
39.6394	170.0000
39.7010	143.0000
39.7626	158.0000
39.8241	144.0000
39.8857	151.0000
39.9473	168.0000
40.0088	183.0000
40.0704	162.0000
40.1320	250.0000
40.1935	405.0000
40.2551	272.0000
40.3167	192.0000
40.3782	141.0000
40.4398	143.0000
40.5014	139.0000
40.5629	144.0000
40.6245	147.0000
40.6861	151.0000
40.7476	153.0000
40.8092	168.0000
40.8708	175.0000
40.9323	163.0000
40.9939	164.0000
41.0555	142.0000
41.1170	142.0000
41.1786	137.0000
41.2401	163.0000
41.3017	160.0000
41.3633	183.0000
41.4248	182.0000
41.4864	139.0000
41.5480	154.0000
41.6095	145.0000
41.6711	156.0000
41.7327	152.0000
41.7942	162.0000
41.8558	170.0000
41.9174	165.0000
41.9789	163.0000
42.0405	143.0000
42.1021	202.0000
42.1636	188.0000
42.2252	215.0000
42.2868	205.0000
42.3483	174.0000
42.4099	205.0000
42.4715	173.0000
42.5330	189.0000
42.5946	214.0000
42.6562	258.0000
42.7177	341.0000
42.7793	444.0000
42.8409	216.0000
42.9024	186.0000
42.9640	180.0000
43.0256	201.0000
43.0871	211.0000
43.1487	198.0000
43.2102	182.0000
43.2718	220.0000
43.3334	201.0000
43.3949	195.0000
43.4565	267.0000
43.5181	351.0000
43.5796	288.0000
43.6412	320.0000
43.7028	238.0000
43.7643	223.0000
43.8259	220.0000
43.8875	263.0000
43.9490	239.0000
44.0106	261.0000
44.0722	309.0000
44.1337	312.0000
44.1953	307.0000
44.2569	408.0000
44.3184	496.0000
44.3800	704.0000
44.4416	1102
44.5031	2046
44.5647	3777
44.6263	8643
44.6878	24113
44.7494	27350
44.8110	15310
44.8725	10705
44.9341	1856
44.9957	1018
45.0572	671.0000
45.1188	504.0000
45.1803	377.0000
45.2419	342.0000
45.3035	333.0000
45.3650	321.0000
45.4266	298.0000
45.4882	262.0000
45.5497	282.0000
45.6113	281.0000
45.6729	238.0000
45.7344	260.0000
45.7960	239.0000
45.8576	229.0000
45.9191	244.0000
45.9807	216.0000
46.0423	227.0000
46.1038	222.0000
46.1654	216.0000
46.2270	208.0000
46.2885	218.0000
46.3501	199.0000
46.4117	214.0000
46.4732	197.0000
46.5348	193.0000
46.5964	211.0000
46.6579	182.0000
46.7195	220.0000
46.7811	202.0000
46.8426	221.0000
46.9042	210.0000
46.9658	215.0000
47.0273	192.0000
47.0889	184.0000
47.1504	176.0000
47.2120	196.0000
47.2736	172.0000
47.3351	183.0000
47.3967	174.0000
47.4583	180.0000
47.5198	188.0000
47.5814	162.0000
47.6430	164.0000
47.7045	165.0000
47.7661	163.0000
47.8277	159.0000
47.8892	171.0000
47.9508	188.0000
48.0124	157.0000
48.0739	160.0000
48.1355	139.0000
48.1971	156.0000
48.2586	145.0000
48.3202	155.0000
48.3818	173.0000
48.4433	161.0000
48.5049	132.0000
48.5665	164.0000
48.6280	130.0000
48.6896	148.0000
48.7512	179.0000
48.8127	181.0000
48.8743	165.0000
48.9359	177.0000
48.9974	165.0000
49.0590	144.0000
49.1205	159.0000
49.1821	145.0000
49.2437	160.0000
49.3052	130.0000
49.3668	144.0000
49.4284	135.0000
49.4899	145.0000
49.5515	122.0000
49.6131	128.0000
49.6746	114.0000
49.7362	121.0000
49.7978	128.0000
49.8593	119.0000
49.9209	140.0000
49.9825	100.0000
50.0440	109.0000
50.1056	128.0000
50.1672	138.0000
50.2287	121.0000
50.2903	114.0000
50.3519	110.0000
50.4134	105.0000
50.4750	127.0000
50.5366	112.0000
50.5981	107.0000
50.6597	121.0000
50.7213	111.0000
50.7828	103.0000
50.8444	99.0000
50.9060	87.0000
50.9675	102.0000
51.0291	109.0000
51.0907	106.0000
51.1522	97.0000
51.2138	107.0000
51.2753	90.0000
51.3369	112.0000
51.3985	87.0000
51.4600	113.0000
51.5216	115.0000
51.5832	101.0000
51.6447	109.0000
51.7063	84.0000
51.7679	90.0000
51.8294	89.0000
51.8910	110.0000
51.9526	99.0000
52.0141	90.0000
52.0757	100.0000
52.1373	92.0000
52.1988	88.0000
52.2604	90.0000
52.3220	92.0000
52.3835	100.0000
52.4451	84.0000
52.5067	101.0000
52.5682	101.0000
52.6298	80.0000
52.6914	92.0000
52.7529	93.0000
52.8145	81.0000
52.8761	82.0000
52.9376	78.0000
52.9992	93.0000
53.0608	93.0000
53.1223	100.0000
53.1839	95.0000
53.2454	90.0000
53.3070	95.0000
53.3686	82.0000
53.4301	105.0000
53.4917	78.0000
53.5533	101.0000
53.6148	93.0000
53.6764	73.0000
53.7380	99.0000
53.7995	97.0000
53.8611	76.0000
53.9227	78.0000
53.9842	78.0000
54.0458	101.0000
54.1074	71.0000
54.1689	85.0000
54.2305	81.0000
54.2921	87.0000
54.3536	96.0000
54.4152	84.0000
54.4768	103.0000
54.5383	81.0000
54.5999	84.0000
54.6615	91.0000
54.7230	80.0000
54.7846	95.0000
54.8462	96.0000
54.9077	92.0000
54.9693	80.0000
55.0309	77.0000
55.0924	68.0000
55.1540	92.0000
55.2155	86.0000
55.2771	81.0000
55.3387	85.0000
55.4002	92.0000
55.4618	86.0000
55.5234	79.0000
55.5849	86.0000
55.6465	96.0000
55.7081	91.0000
55.7696	66.0000
55.8312	76.0000
55.8928	73.0000
55.9543	79.0000
56.0159	79.0000
56.0775	85.0000
56.1390	89.0000
56.2006	91.0000
56.2622	97.0000
56.3237	90.0000
56.3853	90.0000
56.4469	90.0000
56.5084	90.0000
56.5700	92.0000
56.6316	84.0000
56.6931	102.0000
56.7547	98.0000
56.8163	85.0000
56.8778	85.0000
56.9394	85.0000
57.0010	85.0000
57.0625	94.0000
57.1241	92.0000
57.1856	86.0000
57.2472	87.0000
57.3088	84.0000
57.3703	79.0000
57.4319	86.0000
57.4935	86.0000
57.5550	95.0000
57.6166	70.0000
57.6782	80.0000
57.7397	100.0000
57.8013	79.0000
57.8629	93.0000
57.9244	92.0000
57.9860	103.0000
58.0476	92.0000
58.1091	135.0000
58.1707	184.0000
58.2323	105.0000
58.2938	101.0000
58.3554	90.0000
58.4170	85.0000
58.4785	97.0000
58.5401	84.0000
58.6017	79.0000
58.6632	85.0000
58.7248	89.0000
58.7864	98.0000
58.8479	74.0000
58.9095	97.0000
58.9711	78.0000
59.0326	97.0000
59.0942	86.0000
59.1558	100.0000
59.2173	95.0000
59.2789	90.0000
59.3404	102.0000
59.4020	93.0000
59.4636	97.0000
59.5251	76.0000
59.5867	69.0000
59.6483	96.0000
59.7098	85.0000
59.7714	86.0000
59.8330	86.0000
59.8945	92.0000
59.9561	79.0000
60.0177	113.0000
60.0792	99.0000
60.1408	88.0000
60.2024	105.0000
60.2639	77.0000
60.3255	84.0000
60.3871	86.0000
60.4486	110.0000
60.5102	84.0000
60.5718	100.0000
60.6333	96.0000
60.6949	86.0000
60.7565	100.0000
60.8180	85.0000
60.8796	114.0000
60.9412	80.0000
61.0027	95.0000
61.0643	100.0000
61.1259	84.0000
61.1874	116.0000
61.2490	102.0000
61.3105	91.0000
61.3721	98.0000
61.4337	121.0000
61.4952	105.0000
61.5568	108.0000
61.6184	120.0000
61.6799	113.0000
61.7415	96.0000
61.8031	114.0000
61.8646	106.0000
61.9262	111.0000
61.9878	143.0000
62.0493	198.0000
62.1109	153.0000
62.1725	119.0000
62.2340	139.0000
62.2956	131.0000
62.3572	124.0000
62.4187	106.0000
62.4803	122.0000
62.5419	115.0000
62.6034	156.0000
62.6650	111.0000
62.7266	110.0000
62.7881	112.0000
62.8497	130.0000
62.9113	99.0000
62.9728	119.0000
63.0344	134.0000
63.0960	111.0000
63.1575	113.0000
63.2191	130.0000
63.2806	127.0000
63.3422	125.0000
63.4038	130.0000
63.4653	138.0000
63.5269	143.0000
63.5885	122.0000
63.6500	122.0000
63.7116	126.0000
63.7732	120.0000
63.8347	136.0000
63.8963	124.0000
63.9579	127.0000
64.0194	126.0000
64.0810	139.0000
64.1426	137.0000
64.2041	143.0000
64.2657	142.0000
64.3273	140.0000
64.3888	158.0000
64.4504	158.0000
64.5120	154.0000
64.5735	189.0000
64.6351	209.0000
64.6967	285.0000
64.7582	408.0000
64.8198	499.0000
64.8814	605.0000
64.9429	1180
65.0045	3077
65.0661	11145
65.1276	7324
65.1892	2736
65.2507	6744
65.3123	3796
65.3739	783.0000
65.4354	506.0000
65.4970	322.0000
65.5586	268.0000
65.6201	218.0000
65.6817	212.0000
65.7433	162.0000
65.8048	167.0000
65.8664	198.0000
65.9280	175.0000
65.9895	176.0000
66.0511	162.0000
66.1127	176.0000
66.1742	165.0000
66.2358	174.0000
66.2974	153.0000
66.3589	142.0000
66.4205	153.0000
66.4821	143.0000
66.5436	163.0000
66.6052	159.0000
66.6668	155.0000
66.7283	144.0000
66.7899	122.0000
66.8515	123.0000
66.9130	143.0000
66.9746	136.0000
67.0362	132.0000
67.0977	160.0000
67.1593	141.0000
67.2208	151.0000
67.2824	129.0000
67.3440	138.0000
67.4055	154.0000
67.4671	144.0000
67.5287	157.0000
67.5902	140.0000
67.6518	120.0000
67.7134	149.0000
67.7749	142.0000
67.8365	113.0000
67.8981	131.0000
67.9596	140.0000
68.0212	135.0000
68.0828	141.0000
68.1443	130.0000
68.2059	126.0000
68.2675	129.0000
68.3290	136.0000
68.3906	136.0000
68.4522	121.0000
68.5137	141.0000
68.5753	125.0000
68.6369	140.0000
68.6984	137.0000
68.7600	136.0000
68.8216	136.0000
68.8831	123.0000
68.9447	137.0000
69.0063	166.0000
69.0678	130.0000
69.1294	113.0000
69.1910	131.0000
69.2525	145.0000
69.3141	121.0000
69.3756	176.0000
69.4372	227.0000
69.4988	330.0000
69.5603	205.0000
69.6219	133.0000
69.6835	124.0000
69.7450	136.0000
69.8066	127.0000
69.8682	139.0000
69.9297	111.0000
69.9913	142.0000
70.0529	152.0000
70.1144	122.0000
70.1760	130.0000
70.2376	148.0000
70.2991	146.0000
70.3607	143.0000
70.4223	125.0000
70.4838	115.0000
70.5454	128.0000
70.6070	135.0000
70.6685	142.0000
70.7301	125.0000
70.7917	136.0000
70.8532	124.0000
70.9148	138.0000
70.9764	121.0000
71.0379	154.0000
71.0995	148.0000
71.1611	156.0000
71.2226	148.0000
71.2842	123.0000
71.3457	133.0000
71.4073	122.0000
71.4689	138.0000
71.5304	135.0000
71.5920	141.0000
71.6536	161.0000
71.7151	154.0000
71.7767	151.0000
71.8383	135.0000
71.8998	123.0000
71.9614	149.0000
72.0230	143.0000
72.0845	144.0000
72.1461	161.0000
72.2077	161.0000
72.2692	156.0000
72.3308	140.0000
72.3924	140.0000
72.4539	159.0000
72.5155	138.0000
72.5771	141.0000
72.6386	149.0000
72.7002	141.0000
72.7618	147.0000
72.8233	155.0000
72.8849	159.0000
72.9465	152.0000
73.0080	154.0000
73.0696	171.0000
73.1312	140.0000
73.1927	144.0000
73.2543	182.0000
73.3158	182.0000
73.3774	184.0000
73.4390	170.0000
73.5005	140.0000
73.5621	145.0000
73.6237	145.0000
73.6852	161.0000
73.7468	173.0000
73.8084	159.0000
73.8699	153.0000
73.9315	166.0000
73.9931	151.0000
74.0546	155.0000
74.1162	211.0000
74.1778	195.0000
74.2393	236.0000
74.3009	260.0000
74.3625	426.0000
74.4240	339.0000
74.4856	237.0000
74.5472	170.0000
74.6087	196.0000
74.6703	175.0000
74.7319	194.0000
74.7934	189.0000
74.8550	183.0000
74.9166	212.0000
74.9781	194.0000
75.0397	203.0000
75.1013	211.0000
75.1628	209.0000
75.2244	178.0000
75.2859	177.0000
75.3475	200.0000
75.4091	193.0000
75.4706	225.0000
75.5322	189.0000
75.5938	194.0000
75.6553	217.0000
75.7169	181.0000
75.7785	212.0000
75.8400	202.0000
75.9016	187.0000
75.9632	201.0000
76.0247	230.0000
76.0863	192.0000
76.1479	215.0000
76.2094	178.0000
76.2710	224.0000
76.3326	206.0000
76.3941	223.0000
76.4557	240.0000
76.5173	251.0000
76.5788	232.0000
76.6404	289.0000
76.7020	255.0000
76.7635	262.0000
76.8251	303.0000
76.8867	273.0000
76.9482	267.0000
77.0098	266.0000
77.0714	249.0000
77.1329	288.0000
77.1945	303.0000
77.2560	273.0000
77.3176	321.0000
77.3792	324.0000
77.4407	315.0000
77.5023	344.0000
77.5639	375.0000
77.6254	436.0000
77.6870	505.0000
77.7486	701.0000
77.8101	866.0000
77.8717	1104
77.9333	1367
77.9948	1696
78.0564	3174
78.1180	8868
78.1795	27468
78.2411	28068
78.3027	6929
78.3642	8252
78.4258	18745
78.4874	10918
78.5489	2709
78.6105	1405
78.6721	945.0000
78.7336	724.0000
78.7952	580.0000
78.8568	493.0000
78.9183	459.0000
78.9799	396.0000
79.0415	404.0000
79.1030	372.0000
79.1646	377.0000
79.2262	319.0000
79.2877	336.0000
79.3493	320.0000
79.4108	331.0000
79.4724	307.0000
79.5340	291.0000
79.5955	302.0000
79.6571	305.0000
79.7187	301.0000
79.7802	257.0000
79.8418	253.0000
79.9034	243.0000
79.9649	247.0000
80.0265	272.0000
80.0881	248.0000
80.1496	221.0000
80.2112	240.0000
80.2728	273.0000
80.3343	234.0000
80.3959	229.0000
80.4575	212.0000
80.5190	207.0000
80.5806	215.0000
80.6422	237.0000
80.7037	214.0000
80.7653	208.0000
80.8269	209.0000
80.8884	234.0000
80.9500	221.0000
81.0116	224.0000
81.0731	207.0000
81.1347	200.0000
81.1963	214.0000
81.2578	231.0000
81.3194	168.0000
81.3809	195.0000
81.4425	209.0000
81.5041	202.0000
81.5656	188.0000
81.6272	186.0000
81.6888	188.0000
81.7503	194.0000
81.8119	202.0000
81.8735	205.0000
81.9350	193.0000
81.9966	213.0000
82.0582	228.0000
82.1197	172.0000
82.1813	185.0000
82.2429	182.0000
82.3044	194.0000
82.3660	220.0000
82.4276	244.0000
82.4891	194.0000
82.5507	186.0000
82.6123	204.0000
82.6738	206.0000
82.7354	188.0000
82.7970	170.0000
82.8585	175.0000
82.9201	193.0000
82.9817	143.0000
83.0432	181.0000
83.1048	171.0000
83.1664	138.0000
83.2279	143.0000
83.2895	153.0000
83.3510	155.0000
83.4126	154.0000
83.4742	160.0000
83.5357	148.0000
83.5973	137.0000
83.6589	164.0000
83.7204	154.0000
83.7820	181.0000
83.8436	139.0000
83.9051	145.0000
83.9667	143.0000
84.0283	167.0000
84.0898	135.0000
84.1514	146.0000
84.2130	142.0000
84.2745	162.0000
84.3361	150.0000
84.3977	139.0000
84.4592	144.0000
84.5208	154.0000
84.5824	133.0000
84.6439	147.0000
84.7055	133.0000
84.7671	126.0000
84.8286	125.0000
84.8902	140.0000
84.9518	146.0000
85.0133	142.0000
85.0749	136.0000
85.1365	116.0000
85.1980	138.0000
85.2596	150.0000
85.3211	116.0000
85.3827	136.0000
85.4443	123.0000
85.5058	145.0000
85.5674	158.0000
85.6290	150.0000
85.6905	127.0000
85.7521	156.0000
85.8137	135.0000
85.8752	128.0000
85.9368	144.0000
85.9984	128.0000
86.0599	144.0000
86.1215	134.0000
86.1831	139.0000
86.2446	129.0000
86.3062	132.0000
86.3678	142.0000
86.4293	144.0000
86.4909	130.0000
86.5525	115.0000
86.6140	127.0000
86.6756	135.0000
86.7372	135.0000
86.7987	123.0000
86.8603	142.0000
86.9219	124.0000
86.9834	130.0000
87.0450	133.0000
87.1066	113.0000
87.1681	133.0000
87.2297	131.0000
87.2912	119.0000
87.3528	119.0000
87.4144	114.0000
87.4759	116.0000
87.5375	100.0000
87.5991	113.0000
87.6606	135.0000
87.7222	106.0000
87.7838	111.0000
87.8453	119.0000
87.9069	102.0000
87.9685	124.0000
88.0300	112.0000
88.0916	117.0000
88.1532	119.0000
88.2147	109.0000
88.2763	108.0000
88.3379	99.0000
88.3994	123.0000
88.4610	88.0000
88.5226	122.0000
88.5841	105.0000
88.6457	106.0000
88.7073	79.0000
88.7688	104.0000
88.8304	107.0000
88.8920	123.0000
88.9535	95.0000
89.0151	102.0000
89.0767	108.0000
89.1382	112.0000
89.1998	110.0000
89.2614	110.0000
89.3229	107.0000
89.3845	105.0000
89.4460	98.0000
89.5076	98.0000
89.5692	122.0000
89.6307	94.0000
89.6923	111.0000
89.7539	122.0000
89.8154	112.0000
89.8770	86.0000
89.9386	102.0000
90.0001	112.0000
90.0617	110.0000
90.1233	110.0000
90.1848	94.0000
90.2464	94.0000
90.3080	90.0000
90.3695	105.0000
90.4311	98.0000
90.4927	94.0000
90.5542	94.0000
90.6158	97.0000
90.6774	93.0000
90.7389	100.0000
90.8005	94.0000
90.8621	98.0000
90.9236	100.0000
90.9852	110.0000
91.0468	111.0000
91.1083	114.0000
91.1699	100.0000
91.2315	115.0000
91.2930	96.0000
91.3546	89.0000
91.4161	97.0000
91.4777	96.0000
91.5393	99.0000
91.6008	102.0000
91.6624	101.0000
91.7240	111.0000
91.7855	98.0000
91.8471	123.0000
91.9087	105.0000
91.9702	82.0000
92.0318	99.0000
92.0934	82.0000
92.1549	98.0000
92.2165	84.0000
92.2781	104.0000
92.3396	82.0000
92.4012	95.0000
92.4628	89.0000
92.5243	81.0000
92.5859	87.0000
92.6475	88.0000
92.7090	95.0000
92.7706	82.0000
92.8322	92.0000
92.8937	109.0000
92.9553	76.0000
93.0169	97.0000
93.0784	95.0000
93.1400	93.0000
93.2016	77.0000
93.2631	77.0000
93.3247	100.0000
93.3862	98.0000
93.4478	94.0000
93.5094	96.0000
93.5709	88.0000
93.6325	99.0000
93.6941	105.0000
93.7556	111.0000
93.8172	95.0000
93.8788	78.0000
93.9403	97.0000
94.0019	92.0000
94.0635	76.0000
94.1250	72.0000
94.1866	84.0000
94.2482	88.0000
94.3097	84.0000
94.3713	84.0000
94.4329	84.0000
94.4944	91.0000
94.5560	103.0000
94.6176	92.0000
94.6791	81.0000
94.7407	75.0000
94.8023	108.0000
94.8638	71.0000
94.9254	84.0000
94.9870	88.0000
95.0485	79.0000
95.1101	84.0000
95.1717	91.0000
95.2332	94.0000
95.2948	78.0000
95.3563	95.0000
95.4179	79.0000
95.4795	93.0000
95.5410	83.0000
95.6026	87.0000
95.6642	93.0000
95.7257	78.0000
95.7873	92.0000
95.8489	93.0000
95.9104	88.0000
95.9720	88.0000
96.0336	76.0000
96.0951	94.0000
96.1567	89.0000
96.2183	92.0000
96.2798	87.0000
96.3414	93.0000
96.4030	91.0000
96.4645	88.0000
96.5261	74.0000
96.5877	99.0000
96.6492	86.0000
96.7108	91.0000
96.7724	98.0000
96.8339	106.0000
96.8955	98.0000
96.9571	81.0000
97.0186	91.0000
97.0802	104.0000
97.1418	89.0000
97.2033	87.0000
97.2649	94.0000
97.3264	106.0000
97.3880	88.0000
97.4496	83.0000
97.5111	86.0000
97.5727	87.0000
97.6343	96.0000
97.6958	99.0000
97.7574	100.0000
97.8190	108.0000
97.8805	85.0000
97.9421	83.0000
98.0037	88.0000
98.0652	98.0000
98.1268	103.0000
98.1884	118.0000
98.2499	89.0000
98.3115	106.0000
98.3731	107.0000
98.4346	108.0000
98.4962	111.0000
98.5578	122.0000
98.6193	117.0000
98.6809	126.0000
98.7425	139.0000
98.8040	176.0000
98.8656	200.0000
98.9272	292.0000
98.9887	738.0000
99.0503	2517
99.1119	1526
99.1734	484.0000
99.2350	323.0000
99.2966	383.0000
99.3581	875.0000
99.4197	1373
99.4812	464.0000
99.5428	223.0000
99.6044	151.0000
99.6659	125.0000
99.7275	124.0000
99.7891	115.0000
99.8506	116.0000
99.9122	106.0000
99.9738	83.0000
100.0353	107.0000