File: Advanced_Physics_Laboratory/Pysical_Properties/XRD/peak_data.dat
x y
20 311
20.0616 308
20.1231 307
20.1847 295
20.2463 318
20.3078 290
20.3694 310
20.431 263
20.4925 312
20.5541 322
20.6157 285
20.6772 281
20.7388 282
20.8004 286
20.8619 293
20.9235 299
20.9851 311
21.0466 283
21.1082 313
21.1697 303
21.2313 260
21.2929 275
21.3544 257
21.416 273
21.4776 275
21.5391 272
21.6007 256
21.6623 285
21.7238 269
21.7854 248
21.847 271
21.9085 263
21.9701 273
22.0317 278
22.0932 267
22.1548 254
22.2164 280
22.2779 294
22.3395 267
22.4011 251
22.4626 287
22.5242 267
22.5858 269
22.6473 268
22.7089 283
22.7705 245
22.832 287
22.8936 235
22.9552 248
23.0167 256
23.0783 228
23.1398 238
23.2014 241
23.263 230
23.3245 256
23.3861 237
23.4477 227
23.5092 243
23.5708 248
23.6324 220
23.6939 232
23.7555 225
23.8171 265
23.8786 298
23.9402 263
24.0018 246
24.0633 257
24.1249 273
24.1865 274
24.248 278
24.3096 240
24.3712 235
24.4327 205
24.4943 242
24.5559 231
24.6174 231
24.679 243
24.7406 193
24.8021 212
24.8637 237
24.9253 216
24.9868 193
25.0484 196
25.1099 255
25.1715 220
25.2331 241
25.2946 211
25.3562 229
25.4178 229
25.4793 218
25.5409 201
25.6025 233
25.664 206
25.7256 211
25.7872 228
25.8487 213
25.9103 217
25.9719 199
26.0334 204
26.095 195
26.1566 202
26.2181 194
26.2797 203
26.3413 223
26.4028 218
26.4644 209
26.526 210
26.5875 197
26.6491 203
26.7107 189
26.7722 219
26.8338 179
26.8954 213
26.9569 204
27.0185 194
27.08 183
27.1416 183
27.2032 222
27.2647 190
27.3263 191
27.3879 210
27.4494 230
27.511 229
27.5726 215
27.6341 202
27.6957 165
27.7573 177
27.8188 171
27.8804 199
27.942 184
28.0035 184
28.0651 212
28.1267 187
28.1882 183
28.2498 178
28.3114 218
28.3729 213
28.4345 195
28.4961 210
28.5576 170
28.6192 180
28.6808 191
28.7423 204
28.8039 170
28.8655 166
28.927 182
28.9886 193
29.0501 159
29.1117 166
29.1733 159
29.2348 174
29.2964 144
29.358 186
29.4195 171
29.4811 182
29.5427 178
29.6042 191
29.6658 144
29.7274 174
29.7889 174
29.8505 162
29.9121 155
29.9736 187
30.0352 180
30.0968 162
30.1583 176
30.2199 164
30.2815 164
30.343 146
30.4046 186
30.4662 154
30.5277 180
30.5893 177
30.6509 181
30.7124 172
30.774 159
30.8356 164
30.8971 159
30.9587 165
31.0203 180
31.0818 180
31.1434 179
31.2049 137
31.2665 178
31.3281 173
31.3896 164
31.4512 170
31.5128 161
31.5743 162
31.6359 172
31.6975 158
31.759 168
31.8206 164
31.8822 164
31.9437 135
32.0053 155
32.0669 154
32.1284 158
32.19 143
32.2516 170
32.3131 159
32.3747 168
32.4363 180
32.4978 153
32.5594 169
32.621 139
32.6825 167
32.7441 156
32.8057 144
32.8672 152
32.9288 148
32.9904 153
33.0519 179
33.1135 143
33.175 179
33.2366 171
33.2982 147
33.3597 132
33.4213 161
33.4829 162
33.5444 167
33.606 160
33.6676 153
33.7291 142
33.7907 148
33.8523 131
33.9138 157
33.9754 160
34.037 156
34.0985 140
34.1601 166
34.2217 150
34.2832 168
34.3448 154
34.4064 171
34.4679 164
34.5295 186
34.5911 186
34.6526 181
34.7142 165
34.7758 158
34.8373 155
34.8989 170
34.9605 151
35.022 171
35.0836 168
35.1451 178
35.2067 129
35.2683 153
35.3298 154
35.3914 151
35.453 144
35.5145 141
35.5761 170
35.6377 161
35.6992 178
35.7608 151
35.8224 156
35.8839 148
35.9455 150
36.0071 145
36.0686 126
36.1302 159
36.1918 140
36.2533 155
36.3149 139
36.3765 148
36.438 164
36.4996 138
36.5612 153
36.6227 175
36.6843 173
36.7459 181
36.8074 187
36.869 146
36.9306 150
36.9921 155
37.0537 157
37.1152 161
37.1768 141
37.2384 140
37.2999 145
37.3615 156
37.4231 167
37.4846 154
37.5462 180
37.6078 150
37.6693 167
37.7309 152
37.7925 150
37.854 152
37.9156 160
37.9772 162
38.0387 180
38.1003 166
38.1619 230
38.2234 319
38.285 365
38.3466 670
38.4081 1100
38.4697 2082
38.5313 949
38.5928 901
38.6544 278
38.716 196
38.7775 189
38.8391 163
38.9007 147
38.9622 174
39.0238 145
39.0853 149
39.1469 163
39.2085 144
39.27 167
39.3316 160
39.3932 156
39.4547 130
39.5163 125
39.5779 137
39.6394 170
39.701 143
39.7626 158
39.8241 144
39.8857 151
39.9473 168
40.0088 183
40.0704 162
40.132 250
40.1935 405
40.2551 272
40.3167 192
40.3782 141
40.4398 143
40.5014 139
40.5629 144
40.6245 147
40.6861 151
40.7476 153
40.8092 168
40.8708 175
40.9323 163
40.9939 164
41.0555 142
41.117 142
41.1786 137
41.2401 163
41.3017 160
41.3633 183
41.4248 182
41.4864 139
41.548 154
41.6095 145
41.6711 156
41.7327 152
41.7942 162
41.8558 170
41.9174 165
41.9789 163
42.0405 143
42.1021 202
42.1636 188
42.2252 215
42.2868 205
42.3483 174
42.4099 205
42.4715 173
42.533 189
42.5946 214
42.6562 258
42.7177 341
42.7793 444
42.8409 216
42.9024 186
42.964 180
43.0256 201
43.0871 211
43.1487 198
43.2102 182
43.2718 220
43.3334 201
43.3949 195
43.4565 267
43.5181 351
43.5796 288
43.6412 320
43.7028 238
43.7643 223
43.8259 220
43.8875 263
43.949 239
44.0106 261
44.0722 309
44.1337 312
44.1953 307
44.2569 408
44.3184 496
44.38 704
44.4416 1102
44.5031 2046
44.5647 3777
44.6263 8643
44.6878 24113
44.7494 27350
44.811 15310
44.8725 10705
44.9341 1856
44.9957 1018
45.0572 671
45.1188 504
45.1803 377
45.2419 342
45.3035 333
45.365 321
45.4266 298
45.4882 262
45.5497 282
45.6113 281
45.6729 238
45.7344 260
45.796 239
45.8576 229
45.9191 244
45.9807 216
46.0423 227
46.1038 222
46.1654 216
46.227 208
46.2885 218
46.3501 199
46.4117 214
46.4732 197
46.5348 193
46.5964 211
46.6579 182
46.7195 220
46.7811 202
46.8426 221
46.9042 210
46.9658 215
47.0273 192
47.0889 184
47.1504 176
47.212 196
47.2736 172
47.3351 183
47.3967 174
47.4583 180
47.5198 188
47.5814 162
47.643 164
47.7045 165
47.7661 163
47.8277 159
47.8892 171
47.9508 188
48.0124 157
48.0739 160
48.1355 139
48.1971 156
48.2586 145
48.3202 155
48.3818 173
48.4433 161
48.5049 132
48.5665 164
48.628 130
48.6896 148
48.7512 179
48.8127 181
48.8743 165
48.9359 177
48.9974 165
49.059 144
49.1205 159
49.1821 145
49.2437 160
49.3052 130
49.3668 144
49.4284 135
49.4899 145
49.5515 122
49.6131 128
49.6746 114
49.7362 121
49.7978 128
49.8593 119
49.9209 140
49.9825 100
50.044 109
50.1056 128
50.1672 138
50.2287 121
50.2903 114
50.3519 110
50.4134 105
50.475 127
50.5366 112
50.5981 107
50.6597 121
50.7213 111
50.7828 103
50.8444 99
50.906 87
50.9675 102
51.0291 109
51.0907 106
51.1522 97
51.2138 107
51.2753 90
51.3369 112
51.3985 87
51.46 113
51.5216 115
51.5832 101
51.6447 109
51.7063 84
51.7679 90
51.8294 89
51.891 110
51.9526 99
52.0141 90
52.0757 100
52.1373 92
52.1988 88
52.2604 90
52.322 92
52.3835 100
52.4451 84
52.5067 101
52.5682 101
52.6298 80
52.6914 92
52.7529 93
52.8145 81
52.8761 82
52.9376 78
52.9992 93
53.0608 93
53.1223 100
53.1839 95
53.2454 90
53.307 95
53.3686 82
53.4301 105
53.4917 78
53.5533 101
53.6148 93
53.6764 73
53.738 99
53.7995 97
53.8611 76
53.9227 78
53.9842 78
54.0458 101
54.1074 71
54.1689 85
54.2305 81
54.2921 87
54.3536 96
54.4152 84
54.4768 103
54.5383 81
54.5999 84
54.6615 91
54.723 80
54.7846 95
54.8462 96
54.9077 92
54.9693 80
55.0309 77
55.0924 68
55.154 92
55.2155 86
55.2771 81
55.3387 85
55.4002 92
55.4618 86
55.5234 79
55.5849 86
55.6465 96
55.7081 91
55.7696 66
55.8312 76
55.8928 73
55.9543 79
56.0159 79
56.0775 85
56.139 89
56.2006 91
56.2622 97
56.3237 90
56.3853 90
56.4469 90
56.5084 90
56.57 92
56.6316 84
56.6931 102
56.7547 98
56.8163 85
56.8778 85
56.9394 85
57.001 85
57.0625 94
57.1241 92
57.1856 86
57.2472 87
57.3088 84
57.3703 79
57.4319 86
57.4935 86
57.555 95
57.6166 70
57.6782 80
57.7397 100
57.8013 79
57.8629 93
57.9244 92
57.986 103
58.0476 92
58.1091 135
58.1707 184
58.2323 105
58.2938 101
58.3554 90
58.417 85
58.4785 97
58.5401 84
58.6017 79
58.6632 85
58.7248 89
58.7864 98
58.8479 74
58.9095 97
58.9711 78
59.0326 97
59.0942 86
59.1558 100
59.2173 95
59.2789 90
59.3404 102
59.402 93
59.4636 97
59.5251 76
59.5867 69
59.6483 96
59.7098 85
59.7714 86
59.833 86
59.8945 92
59.9561 79
60.0177 113
60.0792 99
60.1408 88
60.2024 105
60.2639 77
60.3255 84
60.3871 86
60.4486 110
60.5102 84
60.5718 100
60.6333 96
60.6949 86
60.7565 100
60.818 85
60.8796 114
60.9412 80
61.0027 95
61.0643 100
61.1259 84
61.1874 116
61.249 102
61.3105 91
61.3721 98
61.4337 121
61.4952 105
61.5568 108
61.6184 120
61.6799 113
61.7415 96
61.8031 114
61.8646 106
61.9262 111
61.9878 143
62.0493 198
62.1109 153
62.1725 119
62.234 139
62.2956 131
62.3572 124
62.4187 106
62.4803 122
62.5419 115
62.6034 156
62.665 111
62.7266 110
62.7881 112
62.8497 130
62.9113 99
62.9728 119
63.0344 134
63.096 111
63.1575 113
63.2191 130
63.2806 127
63.3422 125
63.4038 130
63.4653 138
63.5269 143
63.5885 122
63.65 122
63.7116 126
63.7732 120
63.8347 136
63.8963 124
63.9579 127
64.0194 126
64.081 139
64.1426 137
64.2041 143
64.2657 142
64.3273 140
64.3888 158
64.4504 158
64.512 154
64.5735 189
64.6351 209
64.6967 285
64.7582 408
64.8198 499
64.8814 605
64.9429 1180
65.0045 3077
65.0661 11145
65.1276 7324
65.1892 2736
65.2507 6744
65.3123 3796
65.3739 783
65.4354 506
65.497 322
65.5586 268
65.6201 218
65.6817 212
65.7433 162
65.8048 167
65.8664 198
65.928 175
65.9895 176
66.0511 162
66.1127 176
66.1742 165
66.2358 174
66.2974 153
66.3589 142
66.4205 153
66.4821 143
66.5436 163
66.6052 159
66.6668 155
66.7283 144
66.7899 122
66.8515 123
66.913 143
66.9746 136
67.0362 132
67.0977 160
67.1593 141
67.2208 151
67.2824 129
67.344 138
67.4055 154
67.4671 144
67.5287 157
67.5902 140
67.6518 120
67.7134 149
67.7749 142
67.8365 113
67.8981 131
67.9596 140
68.0212 135
68.0828 141
68.1443 130
68.2059 126
68.2675 129
68.329 136
68.3906 136
68.4522 121
68.5137 141
68.5753 125
68.6369 140
68.6984 137
68.76 136
68.8216 136
68.8831 123
68.9447 137
69.0063 166
69.0678 130
69.1294 113
69.191 131
69.2525 145
69.3141 121
69.3756 176
69.4372 227
69.4988 330
69.5603 205
69.6219 133
69.6835 124
69.745 136
69.8066 127
69.8682 139
69.9297 111
69.9913 142
70.0529 152
70.1144 122
70.176 130
70.2376 148
70.2991 146
70.3607 143
70.4223 125
70.4838 115
70.5454 128
70.607 135
70.6685 142
70.7301 125
70.7917 136
70.8532 124
70.9148 138
70.9764 121
71.0379 154
71.0995 148
71.1611 156
71.2226 148
71.2842 123
71.3457 133
71.4073 122
71.4689 138
71.5304 135
71.592 141
71.6536 161
71.7151 154
71.7767 151
71.8383 135
71.8998 123
71.9614 149
72.023 143
72.0845 144
72.1461 161
72.2077 161
72.2692 156
72.3308 140
72.3924 140
72.4539 159
72.5155 138
72.5771 141
72.6386 149
72.7002 141
72.7618 147
72.8233 155
72.8849 159
72.9465 152
73.008 154
73.0696 171
73.1312 140
73.1927 144
73.2543 182
73.3158 182
73.3774 184
73.439 170
73.5005 140
73.5621 145
73.6237 145
73.6852 161
73.7468 173
73.8084 159
73.8699 153
73.9315 166
73.9931 151
74.0546 155
74.1162 211
74.1778 195
74.2393 236
74.3009 260
74.3625 426
74.424 339
74.4856 237
74.5472 170
74.6087 196
74.6703 175
74.7319 194
74.7934 189
74.855 183
74.9166 212
74.9781 194
75.0397 203
75.1013 211
75.1628 209
75.2244 178
75.2859 177
75.3475 200
75.4091 193
75.4706 225
75.5322 189
75.5938 194
75.6553 217
75.7169 181
75.7785 212
75.84 202
75.9016 187
75.9632 201
76.0247 230
76.0863 192
76.1479 215
76.2094 178
76.271 224
76.3326 206
76.3941 223
76.4557 240
76.5173 251
76.5788 232
76.6404 289
76.702 255
76.7635 262
76.8251 303
76.8867 273
76.9482 267
77.0098 266
77.0714 249
77.1329 288
77.1945 303
77.256 273
77.3176 321
77.3792 324
77.4407 315
77.5023 344
77.5639 375
77.6254 436
77.687 505
77.7486 701
77.8101 866
77.8717 1104
77.9333 1367
77.9948 1696
78.0564 3174
78.118 8868
78.1795 27468
78.2411 28068
78.3027 6929
78.3642 8252
78.4258 18745
78.4874 10918
78.5489 2709
78.6105 1405
78.6721 945
78.7336 724
78.7952 580
78.8568 493
78.9183 459
78.9799 396
79.0415 404
79.103 372
79.1646 377
79.2262 319
79.2877 336
79.3493 320
79.4108 331
79.4724 307
79.534 291
79.5955 302
79.6571 305
79.7187 301
79.7802 257
79.8418 253
79.9034 243
79.9649 247
80.0265 272
80.0881 248
80.1496 221
80.2112 240
80.2728 273
80.3343 234
80.3959 229
80.4575 212
80.519 207
80.5806 215
80.6422 237
80.7037 214
80.7653 208
80.8269 209
80.8884 234
80.95 221
81.0116 224
81.0731 207
81.1347 200
81.1963 214
81.2578 231
81.3194 168
81.3809 195
81.4425 209
81.5041 202
81.5656 188
81.6272 186
81.6888 188
81.7503 194
81.8119 202
81.8735 205
81.935 193
81.9966 213
82.0582 228
82.1197 172
82.1813 185
82.2429 182
82.3044 194
82.366 220
82.4276 244
82.4891 194
82.5507 186
82.6123 204
82.6738 206
82.7354 188
82.797 170
82.8585 175
82.9201 193
82.9817 143
83.0432 181
83.1048 171
83.1664 138
83.2279 143
83.2895 153
83.351 155
83.4126 154
83.4742 160
83.5357 148
83.5973 137
83.6589 164
83.7204 154
83.782 181
83.8436 139
83.9051 145
83.9667 143
84.0283 167
84.0898 135
84.1514 146
84.213 142
84.2745 162
84.3361 150
84.3977 139
84.4592 144
84.5208 154
84.5824 133
84.6439 147
84.7055 133
84.7671 126
84.8286 125
84.8902 140
84.9518 146
85.0133 142
85.0749 136
85.1365 116
85.198 138
85.2596 150
85.3211 116
85.3827 136
85.4443 123
85.5058 145
85.5674 158
85.629 150
85.6905 127
85.7521 156
85.8137 135
85.8752 128
85.9368 144
85.9984 128
86.0599 144
86.1215 134
86.1831 139
86.2446 129
86.3062 132
86.3678 142
86.4293 144
86.4909 130
86.5525 115
86.614 127
86.6756 135
86.7372 135
86.7987 123
86.8603 142
86.9219 124
86.9834 130
87.045 133
87.1066 113
87.1681 133
87.2297 131
87.2912 119
87.3528 119
87.4144 114
87.4759 116
87.5375 100
87.5991 113
87.6606 135
87.7222 106
87.7838 111
87.8453 119
87.9069 102
87.9685 124
88.03 112
88.0916 117
88.1532 119
88.2147 109
88.2763 108
88.3379 99
88.3994 123
88.461 88
88.5226 122
88.5841 105
88.6457 106
88.7073 79
88.7688 104
88.8304 107
88.892 123
88.9535 95
89.0151 102
89.0767 108
89.1382 112
89.1998 110
89.2614 110
89.3229 107
89.3845 105
89.446 98
89.5076 98
89.5692 122
89.6307 94
89.6923 111
89.7539 122
89.8154 112
89.877 86
89.9386 102
90.0001 112
90.0617 110
90.1233 110
90.1848 94
90.2464 94
90.308 90
90.3695 105
90.4311 98
90.4927 94
90.5542 94
90.6158 97
90.6774 93
90.7389 100
90.8005 94
90.8621 98
90.9236 100
90.9852 110
91.0468 111
91.1083 114
91.1699 100
91.2315 115
91.293 96
91.3546 89
91.4161 97
91.4777 96
91.5393 99
91.6008 102
91.6624 101
91.724 111
91.7855 98
91.8471 123
91.9087 105
91.9702 82
92.0318 99
92.0934 82
92.1549 98
92.2165 84
92.2781 104
92.3396 82
92.4012 95
92.4628 89
92.5243 81
92.5859 87
92.6475 88
92.709 95
92.7706 82
92.8322 92
92.8937 109
92.9553 76
93.0169 97
93.0784 95
93.14 93
93.2016 77
93.2631 77
93.3247 100
93.3862 98
93.4478 94
93.5094 96
93.5709 88
93.6325 99
93.6941 105
93.7556 111
93.8172 95
93.8788 78
93.9403 97
94.0019 92
94.0635 76
94.125 72
94.1866 84
94.2482 88
94.3097 84
94.3713 84
94.4329 84
94.4944 91
94.556 103
94.6176 92
94.6791 81
94.7407 75
94.8023 108
94.8638 71
94.9254 84
94.987 88
95.0485 79
95.1101 84
95.1717 91
95.2332 94
95.2948 78
95.3563 95
95.4179 79
95.4795 93
95.541 83
95.6026 87
95.6642 93
95.7257 78
95.7873 92
95.8489 93
95.9104 88
95.972 88
96.0336 76
96.0951 94
96.1567 89
96.2183 92
96.2798 87
96.3414 93
96.403 91
96.4645 88
96.5261 74
96.5877 99
96.6492 86
96.7108 91
96.7724 98
96.8339 106
96.8955 98
96.9571 81
97.0186 91
97.0802 104
97.1418 89
97.2033 87
97.2649 94
97.3264 106
97.388 88
97.4496 83
97.5111 86
97.5727 87
97.6343 96
97.6958 99
97.7574 100
97.819 108
97.8805 85
97.9421 83
98.0037 88
98.0652 98
98.1268 103
98.1884 118
98.2499 89
98.3115 106
98.3731 107
98.4346 108
98.4962 111
98.5578 122
98.6193 117
98.6809 126
98.7425 139
98.804 176
98.8656 200
98.9272 292
98.9887 738
99.0503 2517
99.1119 1526
99.1734 484
99.235 323
99.2966 383
99.3581 875
99.4197 1373
99.4812 464
99.5428 223
99.6044 151
99.6659 125
99.7275 124
99.7891 115
99.8506 116
99.9122 106
99.9738 83
100.035 107